{"resourceType":"CarePlan","id":"f001","meta":{"versionId":"1","lastUpdated":"2020-11-14T07:32:35.095+00:00","tag":[{"system":"http://terminology.hl7.org/CodeSystem/v3-ActReason","code":"HTEST","display":"test health data"}]},"text":{"status":"generated","div":"<div xmlns=\"http://www.w3.org/1999/xhtml\"><p><b>Generated Narrative with Details</b></p><p><b>id</b>: f001</p><p><b>contained</b>: , </p><p><b>identifier</b>: CP2903 (OFFICIAL)</p><p><b>status</b>: completed</p><p><b>intent</b>: plan</p><p><b>subject</b>: <a>P. van de Heuvel</a></p><p><b>period</b>: 26/06/2011 --&gt; 27/06/2011</p><p><b>careTeam</b>: id: careteam</p><p><b>addresses</b>: <a>?????</a></p><p><b>goal</b>: id: goal; lifecycleStatus: completed; Achieved <span>(Details : {http://terminology.hl7.org/CodeSystem/goal-achievement code 'achieved' = 'Achieved', given as 'Achieved'})</span>; recovery surgery on heart of patient <span>(Details )</span>; Annotation: goal accomplished without complications</p><blockquote><p><b>activity</b></p><h3>Details</h3><table><tr><td>-</td><td><b>Kind</b></td><td><b>Code</b></td><td><b>Status</b></td><td><b>DoNotPerform</b></td><td><b>Scheduled[x]</b></td><td><b>Performer</b></td></tr><tr><td>*</td><td>ServiceRequest</td><td>Operation on heart <span>(Details : {SNOMED CT code '64915003' = 'Operative procedure on heart', given as 'Operation on heart'})</span></td><td>completed</td><td>true</td><td>2011-06-27T09:30:10+01:00</td><td><a>P. Voigt</a></td></tr></table></blockquote></div>"},"contained":[{"resourceType":"CareTeam","id":"careteam","participant":[{"member":{"reference":"Practitioner/f002","display":"P. Voigt"}}]},{"resourceType":"Goal","id":"goal","lifecycleStatus":"completed","achievementStatus":{"coding":[{"system":"http://terminology.hl7.org/CodeSystem/goal-achievement","code":"achieved","display":"Achieved"}],"text":"Achieved"},"description":{"text":"recovery surgery on heart of patient"},"subject":{"reference":"Patient/f001","display":"P. van de Heuvel"},"note":[{"text":"goal accomplished without complications"}]}],"identifier":[{"use":"official","system":"http://www.bmc.nl/zorgportal/identifiers/careplans","value":"CP2903"}],"status":"completed","intent":"plan","subject":{"reference":"Patient/f001","display":"P. van de Heuvel"},"period":{"start":"2011-06-26","end":"2011-06-27"},"careTeam":[{"reference":"#careteam"}],"addresses":[{"reference":"Condition/f201","display":"?????"}],"goal":[{"reference":"#goal"}],"activity":[{"detail":{"kind":"ServiceRequest","code":{"coding":[{"system":"http://snomed.info/sct","code":"64915003","display":"Operation on heart"}]},"status":"completed","doNotPerform":true,"scheduledString":"2011-06-27T09:30:10+01:00","performer":[{"reference":"Practitioner/f002","display":"P. Voigt"}]}}]}
{"resourceType":"CarePlan","id":"example","meta":{"versionId":"1","lastUpdated":"2020-11-14T07:32:50.624+00:00","tag":[{"system":"http://terminology.hl7.org/CodeSystem/v3-ActReason","code":"HTEST","display":"test health data"}]},"text":{"status":"additional","div":"<div xmlns=\"http://www.w3.org/1999/xhtml\">\n      <p> A simple care plan to indicate a patient taking their weight once a day because of obesity.</p>\n    </div>"},"contained":[{"resourceType":"Condition","id":"p1","clinicalStatus":{"coding":[{"system":"http://terminology.hl7.org/CodeSystem/condition-clinical","code":"active"}]},"verificationStatus":{"coding":[{"system":"http://terminology.hl7.org/CodeSystem/condition-ver-status","code":"confirmed"}]},"code":{"text":"Obesity"},"subject":{"reference":"Patient/example","display":"Peter James Chalmers"}}],"identifier":[{"value":"12345"}],"instantiatesUri":["http://example.org/protocol-for-obesity"],"basedOn":[{"display":"Management of Type 2 Diabetes"}],"replaces":[{"display":"Plan from urgent care clinic"}],"partOf":[{"display":"Overall wellness plan"}],"status":"active","intent":"plan","category":[{"text":"Weight management plan"}],"description":"Manage obesity and weight loss","subject":{"reference":"Patient/example","display":"Peter James Chalmers"},"encounter":{"reference":"Encounter/home"},"period":{"end":"2017-06-01"},"created":"2016-01-01","author":{"reference":"Practitioner/example","display":"Dr Adam Careful"},"careTeam":[{"reference":"CareTeam/example"}],"addresses":[{"reference":"#p1","display":"obesity"}],"goal":[{"reference":"Goal/example"}],"activity":[{"outcomeCodeableConcept":[{"coding":[{"system":"http://snomed.info/sct","code":"161832001","display":"Progressive weight loss"}]}],"outcomeReference":[{"reference":"Observation/example","display":"Weight Measured"}],"detail":{"code":{"coding":[{"system":"http://loinc.org","code":"3141-9","display":"Weight Measured"},{"system":"http://snomed.info/sct","code":"27113001","display":"Body weight"}]},"status":"completed","statusReason":{"text":"Achieved weight loss to mitigate diabetes risk."},"doNotPerform":false,"scheduledTiming":{"repeat":{"frequency":1,"period":1,"periodUnit":"d"}},"location":{"display":"Patient's home"},"performer":[{"reference":"Patient/example","display":"Peter James Chalmers"}]}}]}